[
  {
    "resourceType": "Patient",
    "id": "patient-001",
    "identifier": [
      {
        "system": "MRN",
        "value": "MRN-001"
      }
    ],
    "name": [
      {
        "family": "Smith",
        "given": ["John"]
      }
    ],
    "gender": "male",
    "birthDate": "1985-03-15",
    "address": [
      {
        "line": ["123 Main St"],
        "city": "Boston",
        "state": "MA",
        "postalCode": "02101"
      }
    ]
  },
  {
    "resourceType": "Patient",
    "id": "patient-002",
    "identifier": [
      {
        "system": "MRN",
        "value": "MRN-002"
      }
    ],
    "name": [
      {
        "family": "Johnson",
        "given": ["Sarah"]
      }
    ],
    "gender": "female",
    "birthDate": "1990-07-22",
    "address": [
      {
        "line": ["456 Oak Ave"],
        "city": "Cambridge",
        "state": "MA",
        "postalCode": "02139"
      }
    ]
  },
  {
    "resourceType": "Observation",
    "id": "obs-001",
    "subject": {
      "reference": "Patient/patient-001"
    },
    "code": {
      "coding": [
        {
          "system": "http://loinc.org",
          "code": "33747-0",
          "display": "Glucose [Mass/volume] in Blood"
        }
      ]
    },
    "valueQuantity": {
      "value": 95,
      "unit": "mg/dL"
    },
    "effectiveDateTime": "2024-01-15T10:30:00Z"
  },
  {
    "resourceType": "Observation",
    "id": "obs-002",
    "subject": {
      "reference": "Patient/patient-001"
    },
    "code": {
      "coding": [
        {
          "system": "http://loinc.org",
          "code": "2093-3",
          "display": "Cholesterol, Total"
        }
      ]
    },
    "valueQuantity": {
      "value": 180,
      "unit": "mg/dL"
    },
    "effectiveDateTime": "2024-01-15T10:30:00Z"
  },
  {
    "resourceType": "Observation",
    "id": "obs-003",
    "subject": {
      "reference": "Patient/patient-002"
    },
    "code": {
      "coding": [
        {
          "system": "http://loinc.org",
          "code": "8310-5",
          "display": "Body temperature"
        }
      ]
    },
    "valueQuantity": {
      "value": 98.6,
      "unit": "F"
    },
    "effectiveDateTime": "2024-01-16T14:20:00Z"
  },
  {
    "resourceType": "Condition",
    "id": "condition-001",
    "subject": {
      "reference": "Patient/patient-001"
    },
    "code": {
      "coding": [
        {
          "system": "http://hl7.org/fhir/sid/icd-10-cm",
          "code": "E11.9",
          "display": "Type 2 diabetes mellitus without complications"
        }
      ]
    },
    "clinicalStatus": {
      "coding": [
        {
          "system": "http://terminology.hl7.org/CodeSystem/condition-clinical",
          "code": "active"
        }
      ]
    },
    "onsetDateTime": "2023-06-01T00:00:00Z"
  },
  {
    "resourceType": "Condition",
    "id": "condition-002",
    "subject": {
      "reference": "Patient/patient-002"
    },
    "code": {
      "coding": [
        {
          "system": "http://hl7.org/fhir/sid/icd-10-cm",
          "code": "I10",
          "display": "Essential hypertension"
        }
      ]
    },
    "clinicalStatus": {
      "coding": [
        {
          "system": "http://terminology.hl7.org/CodeSystem/condition-clinical",
          "code": "active"
        }
      ]
    },
    "onsetDateTime": "2023-08-15T00:00:00Z"
  },
  {
    "resourceType": "MedicationRequest",
    "id": "med-001",
    "subject": {
      "reference": "Patient/patient-001"
    },
    "medicationCodeableConcept": {
      "coding": [
        {
          "system": "http://www.nlm.nih.gov/research/umls/rxnorm",
          "code": "860975",
          "display": "Metformin hydrochloride 500 MG Oral Tablet"
        }
      ]
    },
    "authoredOn": "2024-01-10T09:00:00Z",
    "dosageInstruction": [
      {
        "doseQuantity": {
          "value": 500,
          "unit": "mg"
        }
      }
    ]
  },
  {
    "resourceType": "MedicationRequest",
    "id": "med-002",
    "subject": {
      "reference": "Patient/patient-002"
    },
    "medicationCodeableConcept": {
      "coding": [
        {
          "system": "http://www.nlm.nih.gov/research/umls/rxnorm",
          "code": "314076",
          "display": "Lisinopril 10 MG Oral Tablet"
        }
      ]
    },
    "authoredOn": "2024-01-12T11:30:00Z",
    "dosageInstruction": [
      {
        "doseQuantity": {
          "value": 10,
          "unit": "mg"
        }
      }
    ]
  },
  {
    "resourceType": "Observation",
    "id": "obs-004",
    "subject": {
      "reference": "Patient/patient-001"
    },
    "code": {
      "coding": [
        {
          "system": "http://loinc.org",
          "code": "29463-7",
          "display": "Body weight"
        }
      ]
    },
    "valueQuantity": {
      "value": 180,
      "unit": "lbs"
    },
    "effectiveDateTime": "2024-01-15T10:30:00Z"
  },
  {
    "resourceType": "Observation",
    "id": "obs-005",
    "subject": {
      "reference": "Patient/patient-002"
    },
    "code": {
      "coding": [
        {
          "system": "http://loinc.org",
          "code": "8480-6",
          "display": "Systolic blood pressure"
        }
      ]
    },
    "valueQuantity": {
      "value": 140,
      "unit": "mmHg"
    },
    "effectiveDateTime": "2024-01-16T14:20:00Z"
  }
]
